Folder: matl-db/Non-charring/PMMA/UMET

Note: README.md
# matl-db
Condensed Phase Material Database

File: UMET_DSC_N2_1.csv
Time,Temp,Heat Flow
[s],[k],[mW/mg]
0,0,0
30,26.862,-0.5715
60,12.6,-0.470947
90,-0.142,-0.410948
120,-11.459,-0.36538
150,-21.491,-0.325017
180,-30.373,-0.28729
210,-38.231,-0.252732
240,-45.184,-0.223867
270,-51.335,-0.197507
300,-56.777,-0.174209
330,-61.59,-0.152984
360,-65.847,-0.134475
390,-69.614,-0.117796
420,-72.945,-0.102961
450,-75.892,-0.0898267
480,-78.564,-0.079857
510,-79.868,-0.0184453
540,-79.931,-0.00617771
570,-79.952,-0.00104991
600,-79.96,0.00134466
630,-79.962,0.00271199
660,-79.963,0.00357502
690,-79.963,0.0040723
720,-79.963,0.00425627
750,-79.962,0.00459559
780,-79.963,0.00459249
810,-79.963,0.00462377
840,-79.964,0.00474737
870,-79.963,0.00482046
900,-79.963,0.00499802
930,-79.964,0.0049671
960,-79.963,0.00503359
990,-79.964,0.00520048
1020,-79.963,0.00522923
1050,-79.963,0.00538066
1080,-79.964,0.00534409
1110,-79.889,-0.00296571
1140,-75.336,0.129319
1170,-70.379,0.13756
1200,-65.397,0.142499
1230,-60.402,0.146696
1260,-55.403,0.150817
1290,-50.402,0.15406
1320,-45.4,0.157255
1350,-40.398,0.160397
1380,-35.395,0.163531
1410,-30.392,0.16686
1440,-25.389,0.171272
1470,-20.388,0.175453
1500,-15.385,0.178703
1530,-10.386,0.18418
1560,-5.385,0.189807
1590,-0.384,0.196396
1620,4.617,0.203979
1650,9.62,0.212633
1680,14.62,0.220812
1710,19.618,0.229366
1740,24.62,0.237359
1770,29.62,0.243547
1800,34.622,0.248003
1830,39.626,0.248486
1860,44.63,0.248456
1890,49.635,0.248599
1920,54.638,0.248475
1950,59.641,0.248533
1980,64.645,0.248663
2010,69.646,0.248835
2040,74.65,0.24969
2070,79.654,0.250713
2100,84.655,0.252211
2130,89.658,0.254242
2160,94.661,0.256746
2190,99.663,0.260031
2220,104.667,0.263927
2250,109.67,0.269605
2280,114.67,0.277348
2310,119.67,0.289419
2340,124.668,0.307313
2370,129.667,0.326151
2400,134.67,0.327744
2430,139.673,0.328319
2460,144.675,0.330431
2490,149.675,0.332842
2520,154.679,0.33566
2550,159.616,0.340962
2580,160.013,0.0682717
2610,160.039,0.0630539
2640,160.047,0.0595904
2670,160.05,0.0572735
2700,160.048,0.0557966
2730,160.046,0.0550965
2760,160.046,0.054257
2790,160.046,0.0537871
2820,160.046,0.0529125
2850,160.046,0.0525567
2880,160.046,0.0520409
2910,160.045,0.0518406
2940,160.047,0.0515604
2970,160.046,0.0509679
3000,160.046,0.0505331
3030,160.046,0.0503013
3060,160.045,0.050248
3090,160.046,0.05012
3120,160.045,0.0497016
3150,159.997,0.0533324
3180,155.48,-0.219752
3210,150.514,-0.224041
3240,145.528,-0.226273
3270,140.534,-0.227119
3300,135.536,-0.227598
3330,130.537,-0.22627
3360,125.538,-0.22203
3390,120.54,-0.212962
3420,115.541,-0.20209
3450,110.541,-0.192724
3480,105.543,-0.186012
3510,100.543,-0.180168
3540,95.546,-0.175957
3570,90.549,-0.173023
3600,85.55,-0.170423
3630,80.553,-0.167986
3660,75.557,-0.166049
3690,70.56,-0.164383
3720,65.561,-0.164223
3750,60.564,-0.162183
3780,55.566,-0.161203
3810,50.569,-0.160791
3840,45.57,-0.160238
3870,40.573,-0.159932
3900,35.576,-0.159874
3930,30.58,-0.159186
3960,25.585,-0.157686
3990,20.586,-0.156421
4020,15.586,-0.155269
4050,10.587,-0.154164
4080,5.59,-0.152999
4110,0.591,-0.151785
4140,-4.407,-0.150927
4170,-9.406,-0.150281
4200,-14.405,-0.149899
4230,-19.404,-0.150035
4260,-24.404,-0.150129
4290,-29.404,-0.150255
4320,-34.404,-0.150167
4350,-39.405,-0.150283
4380,-44.407,-0.150745
4410,-49.41,-0.15083
4440,-54.411,-0.151171
4470,-59.375,-0.151032
4500,-63.874,-0.138002
4530,-67.843,-0.121289
4560,-71.352,-0.108013
4590,-74.46,-0.0951077
4620,-77.212,-0.0833713
4650,-79.726,-0.0741
4680,-79.998,-0.00841675
4710,-79.962,-0.00246822
4740,-79.955,-0.000223214
4770,-79.953,0.00118538
4800,-79.953,0.00208972
4830,-79.954,0.00258715
4860,-79.955,0.00286191
4890,-79.954,0.00337806
4920,-79.955,0.00334622
4950,-79.955,0.00338708
4980,-79.955,0.00380625
5010,-79.956,0.00390023
5040,-79.956,0.004037
5070,-79.955,0.00410922
5100,-79.956,0.00418684
5130,-79.956,0.00430086
5160,-79.956,0.00437758
5190,-79.957,0.00444075
5220,-79.957,0.00439456
5250,-79.643,-0.0106766
5280,-74.885,0.127436
5310,-69.926,0.135766
5340,-64.945,0.14039
5370,-59.952,0.144545
5400,-54.953,0.148112
5430,-49.954,0.151156
5460,-44.952,0.153824
5490,-39.95,0.156604
5520,-34.949,0.158758
5550,-29.947,0.162201
5580,-24.945,0.165507
5610,-19.943,0.16889
5640,-14.941,0.171515
5670,-9.939,0.174336
5700,-4.938,0.177576
5730,0.064,0.180803
5760,5.067,0.184607
5790,10.07,0.188525
5820,15.073,0.192437
5850,20.075,0.196039
5880,25.077,0.199935
5910,30.081,0.203581
5940,35.083,0.207194
5970,40.087,0.210777
6000,45.09,0.214186
6030,50.093,0.217502
6060,55.096,0.22078
6090,60.098,0.224127
6120,65.1,0.227598
6150,70.102,0.2311
6180,75.104,0.234835
6210,80.107,0.238991
6240,85.111,0.243101
6270,90.113,0.247513
6300,95.115,0.251836
6330,100.116,0.256276
6360,105.116,0.261351
6390,110.121,0.268341
6420,115.123,0.276779
6450,120.124,0.288544
6480,125.12,0.30569
6510,130.12,0.323171
6540,135.123,0.326983
6570,140.123,0.328614
6600,145.125,0.331
6630,150.127,0.333668
6660,155.13,0.336112
6690,159.848,0.307223
6720,160.017,0.067578
6750,160.039,0.0627576
6780,160.046,0.0598513
6810,160.048,0.0583882
6840,160.047,0.0571875
6870,160.047,0.0564898
6900,160.048,0.0558722
6930,160.047,0.0550432
6960,160.047,0.0544594
6990,160.046,0.0539006
7020,160.046,0.0535711
7050,160.046,0.0531202
7080,160.046,0.0527708
7110,160.047,0.0523907
7140,160.046,0.0520919
7170,160.045,0.0520279
7200,160.046,0.0520208
7230,160.045,0.0517253
7260,160.045,0.0515579
7290,159.799,0.0126713
7320,155.033,-0.218204
7350,150.065,-0.2223
7380,145.077,-0.224194
7410,140.082,-0.22458
7440,135.087,-0.224356
7470,130.089,-0.223357
7500,125.09,-0.218641
7530,120.089,-0.208734
7560,115.092,-0.197797
7590,110.094,-0.189096
7620,105.096,-0.182696
7650,100.096,-0.177863
7680,95.098,-0.173761
7710,90.1,-0.170836
7740,85.102,-0.168386
7770,80.105,-0.166526
7800,75.109,-0.164721
7830,70.111,-0.163628
7860,65.113,-0.163556
7890,60.115,-0.162472
7920,55.117,-0.161578
7950,50.12,-0.161195
7980,45.122,-0.160966
8010,40.125,-0.160447
8040,35.13,-0.159766
8070,30.134,-0.158453
8100,25.138,-0.156966
8130,20.138,-0.155641
8160,15.14,-0.154493
8190,10.142,-0.153127
8220,5.14,-0.152183
8250,0.143,-0.150758
8280,-4.856,-0.150067
8310,-9.854,-0.149266
8340,-14.853,-0.148933
8370,-19.854,-0.148802
8400,-24.853,-0.148938
8430,-29.852,-0.148881
8460,-34.853,-0.148712
8490,-39.855,-0.148756
8520,-44.856,-0.148894
8550,-49.858,-0.149155
8580,-54.86,-0.149585
8610,-59.804,-0.148538
8640,-64.25,-0.134702
8670,-68.175,-0.119192
8700,-71.648,-0.105095
8730,-74.722,-0.0921609
8760,-77.443,-0.0805571
8779.02,-79.027,0